Folder: PolyKineticAnalyzer/data

Note: README.md
# PolyKineticAnalyzer
Software for calculating crystallization kinetics parameters based on the Avrami and Friedman methods using data obtained by differential scanning calorimetry.
In order to enjoy the application, download the .exe file

File: PBS_17Kmin.txt
#EXPORTTYPE:DATA SINGLE
#FILE:2024-02-15_Неизотермическая кристаллизация PBS_25-140_3-5-10-15-17-20Kmin_50mlmin.ngb-sd7
#FORMAT:NETZSCH5
#FTYPE:ANSI
#IDENTITY:PBS
#DECIMAL:POINT
#SEPARATOR:SEMICOLON
#MTYPE:DSC
#INSTRUMENT:NETZSCH DSC 204F1 Phoenix
#PROJECT:
#DATE/TIME:15.02.2024 11:16
#CORR. FILE:
#TEMPCAL:06-12-2021 13:53
#SENSITIVITY:06-12-2021 13:52
#LABORATORY:
#OPERATOR:SitnikovaV
#REMARK:
#SAMPLE:PBS
#SAMPLE MASS /mg:17,842
#MATERIAL:polymer
#REFERENCE:ПВС порошок
#REFERENCE MASS /mg:0
#TYPE OF CRUCIBLE:Concavus Al, closed
#SAMPLE CRUCIBLE MASS /mg:0
#REFERENCE CRUCIBLE MASS /mg:0
#PURGE 1 MFC:OXYGEN,252,5 ml/min
#PURGE 2 MFC:NITROGEN,250,0 ml/min
#PROTECTIVE MFC:NITROGEN,250,0 ml/min
#M.RANGE /µV:5000
#TAU-R:---
#CORR. CODE:000
#EXO:-1
#RANGE:140°C/17.0(K/min)/50°C
#SEGMENT:S19/24
#SEG. 19:140°C/17.0(K/min)/50°C

##Temp./°C;Time/min;DSC/(mW/mg);Sensit./(uV/mW)
 50.08200;137.04;     -0.65560;3.45115
 50.58200;137.011;     -0.65867;3.45090
 51.08200;136.981;     -0.66240;3.45065
 51.58200;136.952;     -0.66643;3.45040
 52.08200;136.922;     -0.67055;3.45015
 52.58200;136.893;     -0.67558;3.44989
 53.08200;136.863;     -0.68048;3.44963
 53.58200;136.834;     -0.68625;3.44937
 54.08200;136.804;     -0.69253;3.44910
 54.58200;136.775;     -0.69948;3.44883
 55.08200;136.745;     -0.70745;3.44856
 55.58200;136.716;     -0.71603;3.44829
 56.08200;136.686;     -0.72606;3.44801
 56.58200;136.657;     -0.73709;3.44773
 57.08200;136.627;     -0.75007;3.44744
 57.58200;136.598;     -0.76492;3.44716
 58.08200;136.569;     -0.78179;3.44687
 58.58200;136.539;     -0.80110;3.44658
 59.08200;136.51;     -0.82379;3.44628
 59.58200;136.48;     -0.85017;3.44599
 60.08200;136.451;     -0.88068;3.44569
 60.58200;136.422;     -0.91596;3.44538
 61.08200;136.392;     -0.95723;3.44508
 61.58200;136.363;     -1.00451;3.44477
 62.08200;136.333;     -1.05995;3.44446
 62.58200;136.304;     -1.12464;3.44414
 63.08200;136.275;     -1.19931;3.44383
 63.58200;136.245;     -1.28429;3.44350
 64.08200;136.216;     -1.37977;3.44318
 64.58200;136.187;     -1.48556;3.44286
 65.08200;136.157;     -1.60002;3.44253
 65.58200;136.128;     -1.71963;3.44220
 66.08200;136.099;     -1.84140;3.44186
 66.58200;136.069;     -1.96196;3.44152
 67.08200;136.04;     -2.07927;3.44118
 67.58200;136.011;     -2.18933;3.44084
 68.08200;135.981;     -2.28891;3.44050
 68.58200;135.952;     -2.37524;3.44015
 69.08200;135.923;     -2.44531;3.43979
 69.58200;135.893;     -2.49682;3.43944
 70.08200;135.864;     -2.52770;3.43908
 70.58200;135.834;     -2.53719;3.43872
 71.08200;135.805;     -2.52442;3.43836
 71.58200;135.776;     -2.48922;3.43799
 72.08200;135.746;     -2.43326;3.43763
 72.58200;135.717;     -2.35782;3.43726
 73.08200;135.687;     -2.26579;3.43688
 73.58200;135.658;     -2.15944;3.43650
 74.08200;135.628;     -2.04264;3.43612
 74.58200;135.599;     -1.91911;3.43574
 75.08200;135.57;     -1.79174;3.43536
 75.58200;135.54;     -1.66386;3.43497
 76.08200;135.511;     -1.53904;3.43458
 76.58200;135.481;     -1.41945;3.43418
 77.08200;135.452;     -1.30728;3.43379
 77.58200;135.423;     -1.20429;3.43339
 78.08200;135.393;     -1.11076;3.43298
 78.58200;135.364;     -1.02787;3.43258
 79.08200;135.334;     -0.95533;3.43217
 79.58200;135.305;     -0.89315;3.43176
 80.08200;135.276;     -0.84051;3.43135
 80.58200;135.246;     -0.79634;3.43093
 81.08200;135.217;     -0.76050;3.43051
 81.58200;135.188;     -0.73132;3.43009
 82.08200;135.158;     -0.70818;3.42966
 82.58200;135.129;     -0.69018;3.42923
 83.08200;135.1;     -0.67610;3.42880
 83.58200;135.07;     -0.66582;3.42837
 84.08200;135.041;     -0.65773;3.42793
 84.58200;135.012;     -0.65215;3.42749
 85.08200;134.982;     -0.64800;3.42705
 85.58200;134.953;     -0.64542;3.42661
 86.08200;134.924;     -0.64359;3.42616
 86.58200;134.894;     -0.64261;3.42571
 87.08200;134.865;     -0.64207;3.42526
 87.58200;134.836;     -0.64202;3.42480
 88.08200;134.807;     -0.64233;3.42434
 88.58200;134.777;     -0.64303;3.42388
 89.08200;134.748;     -0.64333;3.42342
 89.58200;134.719;     -0.64440;3.42295
 90.08200;134.689;     -0.64502;3.42248
 90.58200;134.66;     -0.64599;3.42201
 91.08200;134.631;     -0.64660;3.42153
 91.58200;134.602;     -0.64725;3.42105
 92.08200;134.572;     -0.64811;3.42057
 92.58200;134.543;     -0.64894;3.42009
 93.08200;134.514;     -0.64982;3.41960
 93.58200;134.485;     -0.65080;3.41911
 94.08200;134.456;     -0.65183;3.41862
 94.58200;134.426;     -0.65302;3.41812
 95.08200;134.397;     -0.65364;3.41762
 95.58200;134.368;     -0.65463;3.41712
 96.08200;134.339;     -0.65586;3.41662
 96.58200;134.31;     -0.65679;3.41611
 97.08200;134.281;     -0.65797;3.41560
 97.58200;134.252;     -0.65871;3.41509
 98.08200;134.222;     -0.65987;3.41458
 98.58200;134.193;     -0.66071;3.41406
 99.08200;134.164;     -0.66178;3.41354
 99.58200;134.135;     -0.66292;3.41302
100.082;134.106;     -0.66394;3.41249
100.582;134.077;     -0.66523;3.41196
101.082;134.048;     -0.66621;3.41143
101.582;134.019;     -0.66753;3.41090
102.082;133.99;     -0.66888;3.41036
102.582;133.961;     -0.67035;3.40982
103.082;133.932;     -0.67171;3.40928
103.582;133.903;     -0.67289;3.40873
104.082;133.874;     -0.67449;3.40819
104.582;133.845;     -0.67602;3.40763
105.082;133.816;     -0.67758;3.40708
105.582;133.787;     -0.67927;3.40653
106.082;133.759;     -0.68103;3.40597
106.582;133.73;     -0.68249;3.40540
107.082;133.701;     -0.68462;3.40484
107.582;133.672;     -0.68631;3.40427
108.082;133.644;     -0.68812;3.40370
108.582;133.615;     -0.69026;3.40313
109.082;133.586;     -0.69249;3.40255
109.582;133.558;     -0.69462;3.40198
110.082;133.529;     -0.69667;3.40139
110.582;133.501;     -0.69913;3.40081
111.082;133.472;     -0.70184;3.40022
111.582;133.444;     -0.70423;3.39964
112.082;133.416;     -0.70694;3.39904
112.582;133.387;     -0.70948;3.39845
113.082;133.359;     -0.71210;3.39785
113.582;133.331;     -0.71512;3.39725
114.082;133.303;     -0.71831;3.39665
114.582;133.275;     -0.72131;3.39604
115.082;133.247;     -0.72434;3.39543
115.582;133.219;     -0.72733;3.39482
116.082;133.191;     -0.73064;3.39421
116.582;133.164;     -0.73415;3.39359
117.082;133.136;     -0.73765;3.39297
117.582;133.109;     -0.74117;3.39235
118.082;133.081;     -0.74452;3.39173
118.582;133.054;     -0.74845;3.39110
119.082;133.027;     -0.75177;3.39047
119.582;133;     -0.75569;3.38983
120.082;132.972;     -0.75952;3.38920
120.582;132.946;     -0.76273;3.38856
121.082;132.919;     -0.76648;3.38792
121.582;132.892;     -0.77026;3.38727
122.082;132.865;     -0.77373;3.38663
122.582;132.839;     -0.77693;3.38598
123.082;132.813;     -0.78016;3.38533
123.582;132.786;     -0.78300;3.38467
124.082;132.76;     -0.78554;3.38401
124.582;132.734;     -0.78765;3.38335
125.082;132.708;     -0.78961;3.38269
125.582;132.683;     -0.79105;3.38202
126.082;132.657;     -0.79217;3.38136
126.582;132.632;     -0.79223;3.38069
127.082;132.606;     -0.79179;3.38001
127.582;132.581;     -0.78987;3.37934
128.082;132.556;     -0.78771;3.37866
128.582;132.531;     -0.78395;3.37797
129.082;132.506;     -0.77979;3.37729
129.582;132.481;     -0.77290;3.37660
130.082;132.456;     -0.76672;3.37591
130.582;132.431;     -0.75711;3.37522
131.082;132.407;     -0.74567;3.37452
131.582;132.382;     -0.73218;3.37383
132.082;132.357;     -0.71678;3.37313
132.582;132.333;     -0.69859;3.37242
133.082;132.308;     -0.67802;3.37172
133.582;132.283;     -0.65444;3.37101
134.082;132.258;     -0.62775;3.37030
134.582;132.233;     -0.59765;3.36958
135.082;132.208;     -0.56401;3.36887
135.582;132.182;     -0.52650;3.36815
136.082;132.155;     -0.48479;3.36742
136.582;132.128;     -0.43846;3.36670
137.082;132.1;     -0.38745;3.36597
137.582;132.07;     -0.33160;3.36524
138.082;132.039;     -0.27138;3.36451
138.582;132.004;     -0.20715;3.36377
139.082;131.963;     -0.13904;3.36304
139.582;131.91;-7.052564e-02;3.36229