Folder: PolyKineticAnalyzer/app/data/pbs (part 2)

File: PBS_20Kmin.txt
#EXPORTTYPE:DATA SINGLE
#FILE:2024-02-15_Неизотермическая кристаллизация PBS_25-140_3-5-10-15-17-20Kmin_50mlmin.ngb-sd7
#FORMAT:NETZSCH5
#FTYPE:ANSI
#IDENTITY:PBS
#DECIMAL:POINT
#SEPARATOR:SEMICOLON
#MTYPE:DSC
#INSTRUMENT:NETZSCH DSC 204F1 Phoenix
#PROJECT:
#DATE/TIME:15.02.2024 11:16
#CORR. FILE:
#TEMPCAL:06-12-2021 13:53
#SENSITIVITY:06-12-2021 13:52
#LABORATORY:
#OPERATOR:SitnikovaV
#REMARK:
#SAMPLE:PBS
#SAMPLE MASS /mg:17,842
#MATERIAL:polymer
#REFERENCE:ПВС порошок
#REFERENCE MASS /mg:0
#TYPE OF CRUCIBLE:Concavus Al, closed
#SAMPLE CRUCIBLE MASS /mg:0
#REFERENCE CRUCIBLE MASS /mg:0
#PURGE 1 MFC:OXYGEN,252,5 ml/min
#PURGE 2 MFC:NITROGEN,250,0 ml/min
#PROTECTIVE MFC:NITROGEN,250,0 ml/min
#M.RANGE /µV:5000
#TAU-R:---
#CORR. CODE:000
#EXO:-1
#RANGE:140°C/20.0(K/min)/25°C
#SEGMENT:S23/24
#SEG. 23:140°C/20.0(K/min)/25°C

##Temp./°C;Time/min;DSC/(mW/mg);Sensit./(uV/mW)
 25.08500;162.29;     -0.66002;3.45976
 25.58500;162.265;     -0.66195;3.45966
 26.08500;162.24;     -0.66438;3.45956
 26.58500;162.215;     -0.66675;3.45945
 27.08500;162.19;     -0.66913;3.45934
 27.58500;162.165;     -0.67130;3.45923
 28.08500;162.14;     -0.67379;3.45911
 28.58500;162.115;     -0.67606;3.45899
 29.08500;162.09;     -0.67824;3.45887
 29.58500;162.065;     -0.68063;3.45875
 30.08500;162.04;     -0.68280;3.45862
 30.58500;162.015;     -0.68488;3.45849
 31.08500;161.99;     -0.68721;3.45835
 31.58500;161.965;     -0.68918;3.45822
 32.08500;161.94;     -0.69115;3.45808
 32.58500;161.915;     -0.69334;3.45794
 33.08500;161.89;     -0.69544;3.45779
 33.58500;161.865;     -0.69720;3.45764
 34.08500;161.84;     -0.69947;3.45749
 34.58500;161.815;     -0.70147;3.45734
 35.08500;161.79;     -0.70393;3.45718
 35.58500;161.765;     -0.70669;3.45702
 36.08500;161.74;     -0.70908;3.45686
 36.58500;161.715;     -0.71114;3.45670
 37.08500;161.69;     -0.71333;3.45653
 37.58500;161.665;     -0.71557;3.45636
 38.08500;161.64;     -0.71802;3.45618
 38.58500;161.615;     -0.72015;3.45601
 39.08500;161.59;     -0.72226;3.45583
 39.58500;161.565;     -0.72434;3.45564
 40.08500;161.54;     -0.72661;3.45546
 40.58500;161.515;     -0.72855;3.45527
 41.08500;161.49;     -0.73076;3.45508
 41.58500;161.465;     -0.73298;3.45488
 42.08500;161.44;     -0.73550;3.45469
 42.58500;161.415;     -0.73799;3.45449
 43.08500;161.39;     -0.74051;3.45428
 43.58500;161.365;     -0.74324;3.45408
 44.08500;161.34;     -0.74638;3.45387
 44.58500;161.315;     -0.74929;3.45366
 45.08500;161.29;     -0.75276;3.45345
 45.58500;161.265;     -0.75604;3.45323
 46.08500;161.24;     -0.75951;3.45301
 46.58500;161.215;     -0.76301;3.45279
 47.08500;161.19;     -0.76689;3.45256
 47.58500;161.165;     -0.77115;3.45233
 48.08500;161.14;     -0.77581;3.45210
 48.58500;161.115;     -0.78067;3.45187
 49.08500;161.09;     -0.78618;3.45163
 49.58500;161.065;     -0.79187;3.45139
 50.08500;161.04;     -0.79829;3.45115
 50.58500;161.015;     -0.80515;3.45090
 51.08500;160.99;     -0.81277;3.45065
 51.58500;160.965;     -0.82120;3.45040
 52.08500;160.94;     -0.83033;3.45014
 52.58500;160.915;     -0.84080;3.44989
 53.08500;160.89;     -0.85235;3.44963
 53.58500;160.865;     -0.86509;3.44936
 54.08500;160.84;     -0.88010;3.44910
 54.58500;160.815;     -0.89657;3.44883
 55.08500;160.79;     -0.91521;3.44856
 55.58500;160.765;     -0.93630;3.44828
 56.08500;160.74;     -0.96012;3.44801
 56.58500;160.715;     -0.98754;3.44773
 57.08500;160.69;     -1.01837;3.44744
 57.58500;160.665;     -1.05358;3.44716
 58.08500;160.64;     -1.09363;3.44687
 58.58500;160.615;     -1.13951;3.44658
 59.08500;160.59;     -1.19096;3.44628
 59.58500;160.565;     -1.25038;3.44598
 60.08500;160.54;     -1.31725;3.44568
 60.58500;160.516;     -1.39311;3.44538
 61.08500;160.491;     -1.47920;3.44508
 61.58500;160.466;     -1.57506;3.44477
 62.08500;160.441;     -1.68041;3.44446
 62.58500;160.416;     -1.79368;3.44414
 63.08500;160.391;     -1.91271;3.44382
 63.58500;160.366;     -2.03422;3.44350
 64.08500;160.341;     -2.15628;3.44318
 64.58500;160.317;     -2.27604;3.44285
 65.08500;160.292;     -2.39120;3.44253
 65.58500;160.267;     -2.49771;3.44219
 66.08500;160.242;     -2.59279;3.44186
 66.58500;160.217;     -2.67430;3.44152
 67.08500;160.192;     -2.73971;3.44118
 67.58500;160.167;     -2.78766;3.44084
 68.08500;160.142;     -2.81597;3.44049
 68.58500;160.117;     -2.82375;3.44014
 69.08500;160.093;     -2.81001;3.43979
 69.58500;160.068;     -2.77488;3.43944
 70.08500;160.043;     -2.71961;3.43908
 70.58500;160.018;     -2.64512;3.43872
 71.08500;159.993;     -2.55339;3.43836
 71.58500;159.968;     -2.44683;3.43799
 72.08500;159.943;     -2.32862;3.43762
 72.58500;159.918;     -2.20190;3.43725
 73.08500;159.893;     -2.06986;3.43688
 73.58500;159.868;     -1.93639;3.43650
 74.08500;159.843;     -1.80406;3.43612
 74.58500;159.818;     -1.67559;3.43574
 75.08500;159.793;     -1.55363;3.43535
 75.58500;159.768;     -1.43989;3.43497
 76.08500;159.743;     -1.33552;3.43457
 76.58500;159.718;     -1.24134;3.43418
 77.08500;159.693;     -1.15768;3.43378
 77.58500;159.668;     -1.08449;3.43338
 78.08500;159.644;     -1.02148;3.43298
 78.58500;159.619;     -0.96781;3.43258
 79.08500;159.594;     -0.92283;3.43217
 79.58500;159.569;     -0.88560;3.43176
 80.08500;159.544;     -0.85539;3.43134
 80.58500;159.519;     -0.83085;3.43093
 81.08500;159.494;     -0.81153;3.43051
 81.58500;159.469;     -0.79634;3.43008
 82.08500;159.445;     -0.78437;3.42966
 82.58500;159.42;     -0.77565;3.42923
 83.08500;159.395;     -0.76894;3.42880
 83.58500;159.37;     -0.76413;3.42837
 84.08500;159.345;     -0.76082;3.42793
 84.58500;159.32;     -0.75865;3.42749
 85.08500;159.296;     -0.75738;3.42705
 85.58500;159.271;     -0.75664;3.42660
 86.08500;159.246;     -0.75645;3.42616
 86.58500;159.221;     -0.75668;3.42571
 87.08500;159.196;     -0.75714;3.42525
 87.58500;159.172;     -0.75763;3.42480
 88.08500;159.147;     -0.75839;3.42434
 88.58500;159.122;     -0.75938;3.42388
 89.08500;159.097;     -0.76048;3.42341
 89.58500;159.072;     -0.76142;3.42295
 90.08500;159.048;     -0.76255;3.42248
 90.58500;159.023;     -0.76354;3.42200
 91.08500;158.998;     -0.76456;3.42153
 91.58500;158.973;     -0.76572;3.42105
 92.08500;158.949;     -0.76681;3.42057
 92.58500;158.924;     -0.76792;3.42008
 93.08500;158.899;     -0.76923;3.41960
 93.58500;158.875;     -0.77051;3.41911
 94.08500;158.85;     -0.77181;3.41861
 94.58500;158.825;     -0.77337;3.41812
 95.08500;158.8;     -0.77427;3.41762
 95.58500;158.776;     -0.77567;3.41712
 96.08500;158.751;     -0.77707;3.41662
 96.58500;158.726;     -0.77869;3.41611
 97.08500;158.702;     -0.78024;3.41560
 97.58500;158.677;     -0.78155;3.41509
 98.08500;158.653;     -0.78330;3.41458
 98.58500;158.628;     -0.78495;3.41406
 99.08500;158.604;     -0.78662;3.41354
 99.58500;158.579;     -0.78837;3.41301
100.085;158.554;     -0.79007;3.41249
100.585;158.53;     -0.79200;3.41196
101.085;158.506;     -0.79381;3.41143
101.585;158.481;     -0.79575;3.41089
102.085;158.457;     -0.79760;3.41036
102.585;158.432;     -0.79964;3.40982
103.085;158.408;     -0.80166;3.40928
103.585;158.384;     -0.80388;3.40873
104.085;158.359;     -0.80597;3.40818
104.585;158.335;     -0.80808;3.40763
105.085;158.311;     -0.81043;3.40708
105.585;158.287;     -0.81308;3.40652
106.085;158.263;     -0.81569;3.40596
106.585;158.238;     -0.81807;3.40540
107.085;158.214;     -0.82090;3.40484
107.585;158.19;     -0.82353;3.40427
108.085;158.166;     -0.82655;3.40370
108.585;158.142;     -0.82932;3.40313
109.085;158.118;     -0.83231;3.40255
109.585;158.094;     -0.83560;3.40197
110.085;158.071;     -0.83857;3.40139
110.585;158.047;     -0.84155;3.40081
111.085;158.023;     -0.84491;3.40022
111.585;158;     -0.84838;3.39963
112.085;157.976;     -0.85174;3.39904
112.585;157.952;     -0.85515;3.39844
113.085;157.929;     -0.85854;3.39785
113.585;157.906;     -0.86190;3.39725
114.085;157.882;     -0.86566;3.39664
114.585;157.859;     -0.86921;3.39604
115.085;157.836;     -0.87300;3.39543
115.585;157.813;     -0.87677;3.39482
116.085;157.79;     -0.88050;3.39420
116.585;157.767;     -0.88416;3.39359
117.085;157.744;     -0.88791;3.39297
117.585;157.721;     -0.89161;3.39235
118.085;157.698;     -0.89521;3.39172
118.585;157.675;     -0.89886;3.39109
119.085;157.653;     -0.90244;3.39046
119.585;157.63;     -0.90576;3.38983
120.085;157.608;     -0.90895;3.38919
120.585;157.586;     -0.91211;3.38856
121.085;157.563;     -0.91486;3.38791
121.585;157.541;     -0.91732;3.38727
122.085;157.519;     -0.91974;3.38662
122.585;157.497;     -0.92152;3.38597
123.085;157.475;     -0.92327;3.38532
123.585;157.453;     -0.92427;3.38467
124.085;157.432;     -0.92462;3.38401
124.585;157.41;     -0.92427;3.38335
125.085;157.389;     -0.92363;3.38269
125.585;157.367;     -0.92233;3.38202
126.085;157.346;     -0.92012;3.38135
126.585;157.324;     -0.91682;3.38068
127.085;157.303;     -0.91252;3.38001
127.585;157.282;     -0.90732;3.37933
128.085;157.261;     -0.90065;3.37865
128.585;157.24;     -0.89283;3.37797
129.085;157.219;     -0.88329;3.37729
129.585;157.198;     -0.87229;3.37660
130.085;157.177;     -0.85955;3.37591
130.585;157.156;     -0.84477;3.37522
131.085;157.135;     -0.82788;3.37452
131.585;157.114;     -0.80894;3.37382
132.085;157.093;     -0.78748;3.37312
132.585;157.072;     -0.76362;3.37242
133.085;157.05;     -0.73641;3.37171
133.585;157.029;     -0.70649;3.37100
134.085;157.008;     -0.67331;3.37029
134.585;156.986;     -0.63653;3.36958
135.085;156.964;     -0.59640;3.36886
135.585;156.941;     -0.55199;3.36814
136.085;156.918;     -0.50442;3.36742
136.585;156.894;     -0.45282;3.36670
137.085;156.869;     -0.39706;3.36597
137.585;156.843;     -0.33759;3.36524
138.085;156.815;     -0.27448;3.36450
138.585;156.784;     -0.20790;3.36377
139.085;156.747;     -0.13841;3.36303
139.585;156.698;-6.953244e-02;3.36229