Folder: PolyKineticAnalyzer/app/data/pbs

Note: README.md
# PolyKineticAnalyzer
Software for calculating crystallization kinetics parameters based on the Avrami and Friedman methods using data obtained by differential scanning calorimetry.
In order to enjoy the application, download the .exe file

File: PBS_3Kmin.txt
#EXPORTTYPE:DATA SINGLE
#FILE:2024-02-15_Неизотермическая кристаллизация PBS_25-140_3-5-10-15-17-20Kmin_50mlmin.ngb-sd7
#FORMAT:NETZSCH5
#FTYPE:ANSI
#IDENTITY:PBS
#DECIMAL:POINT
#SEPARATOR:SEMICOLON
#MTYPE:DSC
#INSTRUMENT:NETZSCH DSC 204F1 Phoenix
#PROJECT:
#DATE/TIME:15.02.2024 11:16
#CORR. FILE:
#TEMPCAL:06-12-2021 13:53
#SENSITIVITY:06-12-2021 13:52
#LABORATORY:
#OPERATOR:SitnikovaV
#REMARK:
#SAMPLE:PBS
#SAMPLE MASS /mg:17,842
#MATERIAL:polymer
#REFERENCE:ПВС порошок
#REFERENCE MASS /mg:0
#TYPE OF CRUCIBLE:Concavus Al, closed
#SAMPLE CRUCIBLE MASS /mg:0
#REFERENCE CRUCIBLE MASS /mg:0
#PURGE 1 MFC:OXYGEN,252,5 ml/min
#PURGE 2 MFC:NITROGEN,250,0 ml/min
#PROTECTIVE MFC:NITROGEN,250,0 ml/min
#M.RANGE /µV:5000
#TAU-R:---
#CORR. CODE:000
#EXO:-1
#RANGE:140°C/3.0(K/min)/50°C
#SEGMENT:S3/24
#SEG. 3:140°C/3.0(K/min)/50°C

##Temp./°C;Time/min;DSC/(mW/mg);Sensit./(uV/mW)
 50.02500;40.74500;     -0.10943;3.45117
 50.52500;40.57792;     -0.10977;3.45093
 51.02500;40.41065;     -0.11006;3.45068
 51.52500;40.24338;     -0.11030;3.45043
 52.02500;40.07612;     -0.11061;3.45018
 52.52500;39.90891;     -0.11098;3.44992
 53.02500;39.74184;     -0.11136;3.44966
 53.52500;39.57494;     -0.11178;3.44940
 54.02500;39.40822;     -0.11213;3.44913
 54.52500;39.24165;     -0.11230;3.44886
 55.02500;39.07518;     -0.11270;3.44859
 55.52500;38.90878;     -0.11300;3.44832
 56.02500;38.74243;     -0.11321;3.44804
 56.52500;38.57608;     -0.11370;3.44776
 57.02500;38.40972;     -0.11377;3.44748
 57.52500;38.24326;     -0.11401;3.44719
 58.02500;38.07665;     -0.11432;3.44690
 58.52500;37.90989;     -0.11446;3.44661
 59.02500;37.74296;     -0.11500;3.44632
 59.52500;37.57590;     -0.11550;3.44602
 60.02500;37.40877;     -0.11571;3.44572
 60.52500;37.24164;     -0.11629;3.44542
 61.02500;37.07460;     -0.11711;3.44511
 61.52500;36.90778;     -0.11787;3.44480
 62.02500;36.74122;     -0.11844;3.44449
 62.52500;36.57489;     -0.11899;3.44418
 63.02500;36.40871;     -0.11978;3.44386
 63.52500;36.24255;     -0.12018;3.44354
 64.02500;36.07632;     -0.12065;3.44322
 64.52500;35.90991;     -0.12096;3.44289
 65.02500;35.74328;     -0.12149;3.44256
 65.52500;35.57640;     -0.12198;3.44223
 66.02500;35.40929;     -0.12268;3.44190
 66.52500;35.24199;     -0.12306;3.44156
 67.02500;35.07459;     -0.12370;3.44122
 67.52500;34.90715;     -0.12477;3.44088
 68.02500;34.73984;     -0.12578;3.44053
 68.52500;34.57278;     -0.12686;3.44019
 69.02500;34.40598;     -0.12770;3.43984
 69.52500;34.23950;     -0.12851;3.43948
 70.02500;34.07327;     -0.12922;3.43912
 70.52500;33.90723;     -0.13015;3.43876
 71.02500;33.74131;     -0.13070;3.43840
 71.52500;33.57541;     -0.13119;3.43804
 72.02500;33.40945;     -0.13154;3.43767
 72.52500;33.24334;     -0.13235;3.43730
 73.02500;33.07706;     -0.13277;3.43692
 73.52500;32.91056;     -0.13312;3.43655
 74.02500;32.74381;     -0.13358;3.43617
 74.52500;32.57678;     -0.13406;3.43579
 75.02500;32.40945;     -0.13472;3.43540
 75.52500;32.24184;     -0.13534;3.43501
 76.02500;32.07405;     -0.13629;3.43462
 76.52500;31.90620;     -0.13733;3.43423
 77.02500;31.73841;     -0.13894;3.43383
 77.52500;31.57084;     -0.14038;3.43343
 78.02500;31.40355;     -0.14237;3.43303
 78.52500;31.23661;     -0.14482;3.43262
 79.02500;31.07003;     -0.14771;3.43222
 79.52500;30.90377;     -0.15085;3.43181
 80.02500;30.73772;     -0.15616;3.43139
 80.52500;30.57176;     -0.16497;3.43098
 81.02500;30.40573;     -0.18114;3.43056
 81.52500;30.23958;     -0.21059;3.43014
 82.02500;30.07333;     -0.25894;3.42971
 82.52500;29.90704;     -0.32969;3.42928
 83.02500;29.74079;     -0.41857;3.42885
 83.52500;29.57456;     -0.51554;3.42842
 84.02500;29.40831;     -0.60907;3.42798
 84.52500;29.24196;     -0.68910;3.42754
 85.02500;29.07548;     -0.74775;3.42710
 85.52500;28.90889;     -0.77957;3.42666
 86.02500;28.74222;     -0.78380;3.42621
 86.52500;28.57553;     -0.76283;3.42576
 87.02500;28.40882;     -0.72021;3.42531
 87.52500;28.24209;     -0.66192;3.42485
 88.02500;28.07531;     -0.59353;3.42439
 88.52500;27.90845;     -0.52113;3.42393
 89.02500;27.74153;     -0.44954;3.42347
 89.52500;27.57455;     -0.38258;3.42300
 90.02500;27.40750;     -0.32298;3.42253
 90.52500;27.24040;     -0.27216;3.42206
 91.02500;27.07323;     -0.23050;3.42158
 91.52500;26.90602;     -0.19752;3.42111
 92.02500;26.73876;     -0.17268;3.42063
 92.52500;26.57153;     -0.15441;3.42014
 93.02500;26.40437;     -0.14129;3.41966
 93.52500;26.23733;     -0.13273;3.41917
 94.02500;26.07050;     -0.12726;3.41867
 94.52500;25.90387;     -0.12449;3.41818
 95.02500;25.73744;     -0.12322;3.41768
 95.52500;25.57120;     -0.12284;3.41718
 96.02500;25.40504;     -0.12260;3.41668
 96.52500;25.23891;     -0.12257;3.41617
 97.02500;25.07271;     -0.12240;3.41566
 97.52500;24.90637;     -0.12233;3.41515
 98.02500;24.73989;     -0.12246;3.41464
 98.52500;24.57330;     -0.12277;3.41412
 99.02500;24.40667;     -0.12290;3.41360
 99.52500;24.24003;     -0.12299;3.41308
100.025;24.07337;     -0.12322;3.41255
100.525;23.90668;     -0.12324;3.41202
101.025;23.73988;     -0.12344;3.41149
101.525;23.57296;     -0.12350;3.41096
102.025;23.40593;     -0.12366;3.41042
102.525;23.23881;     -0.12393;3.40988
103.025;23.07171;     -0.12438;3.40934
103.525;22.90473;     -0.12469;3.40880
104.025;22.73792;     -0.12485;3.40825
104.525;22.57126;     -0.12525;3.40770
105.025;22.40473;     -0.12540;3.40714
105.525;22.23827;     -0.12572;3.40659
106.025;22.07186;     -0.12598;3.40603
106.525;21.90542;     -0.12600;3.40547
107.025;21.73889;     -0.12592;3.40490
107.525;21.57222;     -0.12630;3.40434
108.025;21.40543;     -0.12641;3.40377
108.525;21.23852;     -0.12669;3.40320
109.025;21.07157;     -0.12675;3.40262
109.525;20.90461;     -0.12731;3.40204
110.025;20.73766;     -0.12765;3.40146
110.525;20.57082;     -0.12801;3.40088
111.025;20.40412;     -0.12827;3.40029
111.525;20.23758;     -0.12843;3.39970
112.025;20.07115;     -0.12867;3.39911
112.525;19.90475;     -0.12871;3.39852
113.025;19.73834;     -0.12883;3.39792
113.525;19.57192;     -0.12926;3.39732
114.025;19.40551;     -0.12962;3.39672
114.525;19.23909;     -0.12970;3.39611
115.025;19.07258;     -0.12973;3.39550
115.525;18.90597;     -0.12977;3.39489
116.025;18.73928;     -0.13013;3.39428
116.525;18.57258;     -0.13057;3.39366
117.025;18.40599;     -0.13070;3.39304
117.525;18.23952;     -0.13095;3.39242
118.025;18.07316;     -0.13130;3.39180
118.525;17.90689;     -0.13157;3.39117
119.025;17.74069;     -0.13164;3.39054
119.525;17.57455;     -0.13198;3.38991
120.025;17.40842;     -0.13214;3.38927
120.525;17.24225;     -0.13209;3.38863
121.025;17.07596;     -0.13199;3.38799
121.525;16.90951;     -0.13202;3.38735
122.025;16.74288;     -0.13240;3.38670
122.525;16.57611;     -0.13217;3.38605
123.025;16.40919;     -0.13237;3.38540
123.525;16.24222;     -0.13281;3.38475
124.025;16.07538;     -0.13309;3.38409
124.525;15.90877;     -0.13386;3.38343
125.025;15.74253;     -0.13435;3.38277
125.525;15.57663;     -0.13434;3.38210
126.025;15.41091;     -0.13443;3.38143
126.525;15.24522;     -0.13464;3.38076
127.025;15.07945;     -0.13478;3.38009
127.525;14.91348;     -0.13479;3.37941
128.025;14.74732;     -0.13469;3.37873
128.525;14.58102;     -0.13489;3.37805
129.025;14.41470;     -0.13527;3.37737
129.525;14.24850;     -0.13586;3.37668
130.025;14.08254;     -0.13612;3.37599
130.525;13.91684;     -0.13646;3.37530
131.025;13.75138;     -0.13687;3.37460
131.525;13.58618;     -0.13725;3.37391
132.025;13.42125;     -0.13775;3.37321
132.525;13.25669;     -0.13842;3.37250
133.025;13.09263;     -0.13946;3.37180
133.525;12.92922;     -0.14045;3.37109
134.025;12.76666;     -0.14168;3.37038
134.525;12.60527;     -0.14289;3.36966
135.025;12.44539;     -0.14523;3.36895
135.525;12.28749;     -0.14784;3.36823
136.025;12.13202;     -0.15030;3.36751
136.525;11.97935;     -0.15322;3.36678
137.025;11.82966;     -0.15542;3.36605
137.525;11.68262;     -0.15623;3.36533
138.025;11.53662;     -0.15304;3.36459
138.525;11.38723;     -0.14144;3.36386
139.025;11.23084;     -0.11363;3.36312
139.525;11.05294;-6.171221e-02;3.36238
140.025;10.84059;-2.110472e-02;3.36164

File: PBS_15Kmin.txt
#EXPORTTYPE:DATA SINGLE
#FILE:2024-02-15_Неизотермическая кристаллизация PBS_25-140_3-5-10-15-17-20Kmin_50mlmin.ngb-sd7
#FORMAT:NETZSCH5
#FTYPE:ANSI
#IDENTITY:PBS
#DECIMAL:POINT
#SEPARATOR:SEMICOLON
#MTYPE:DSC
#INSTRUMENT:NETZSCH DSC 204F1 Phoenix
#PROJECT:
#DATE/TIME:15.02.2024 11:16
#CORR. FILE:
#TEMPCAL:06-12-2021 13:53
#SENSITIVITY:06-12-2021 13:52
#LABORATORY:
#OPERATOR:SitnikovaV
#REMARK:
#SAMPLE:PBS
#SAMPLE MASS /mg:17,842
#MATERIAL:polymer
#REFERENCE:ПВС порошок
#REFERENCE MASS /mg:0
#TYPE OF CRUCIBLE:Concavus Al, closed
#SAMPLE CRUCIBLE MASS /mg:0
#REFERENCE CRUCIBLE MASS /mg:0
#PURGE 1 MFC:OXYGEN,252,5 ml/min
#PURGE 2 MFC:NITROGEN,250,0 ml/min
#PROTECTIVE MFC:NITROGEN,250,0 ml/min
#M.RANGE /µV:5000
#TAU-R:---
#CORR. CODE:000
#EXO:-1
#RANGE:140°C/15.0(K/min)/50°C
#SEGMENT:S15/24
#SEG. 15:140°C/15.0(K/min)/50°C

##Temp./°C;Time/min;DSC/(mW/mg);Sensit./(uV/mW)
 50.07700;117.245;     -0.56964;3.45115
 50.57700;117.212;     -0.57207;3.45090
 51.07700;117.178;     -0.57481;3.45065
 51.57700;117.145;     -0.57786;3.45040
 52.07700;117.111;     -0.58054;3.45015
 52.57700;117.078;     -0.58390;3.44989
 53.07700;117.044;     -0.58710;3.44963
 53.57700;117.011;     -0.59029;3.44937
 54.07700;116.977;     -0.59406;3.44910
 54.57700;116.944;     -0.59806;3.44883
 55.07700;116.91;     -0.60253;3.44856
 55.57700;116.877;     -0.60753;3.44829
 56.07700;116.844;     -0.61269;3.44801
 56.57700;116.81;     -0.61837;3.44773
 57.07700;116.777;     -0.62482;3.44745
 57.57700;116.743;     -0.63237;3.44716
 58.07700;116.71;     -0.64094;3.44687
 58.57700;116.677;     -0.65051;3.44658
 59.07700;116.643;     -0.66190;3.44629
 59.57700;116.61;     -0.67460;3.44599
 60.07700;116.577;     -0.68912;3.44569
 60.57700;116.543;     -0.70746;3.44539
 61.07700;116.51;     -0.72609;3.44508
 61.57700;116.476;     -0.75058;3.44477
 62.07700;116.443;     -0.77887;3.44446
 62.57700;116.41;     -0.81264;3.44415
 63.07700;116.377;     -0.85267;3.44383
 63.57700;116.343;     -0.89938;3.44351
 64.07700;116.31;     -0.95474;3.44319
 64.57700;116.277;     -1.01983;3.44286
 65.07700;116.243;     -1.09661;3.44253
 65.57700;116.21;     -1.18448;3.44220
 66.07700;116.177;     -1.28391;3.44186
 66.57700;116.144;     -1.39216;3.44153
 67.07700;116.11;     -1.50881;3.44119
 67.57700;116.077;     -1.63069;3.44084
 68.07700;116.044;     -1.75217;3.44050
 68.57700;116.011;     -1.87035;3.44015
 69.07700;115.977;     -1.98141;3.43980
 69.57700;115.944;     -2.08298;3.43944
 70.07700;115.911;     -2.17151;3.43909
 70.57700;115.877;     -2.24380;3.43873
 71.07700;115.844;     -2.29719;3.43836
 71.57700;115.811;     -2.32970;3.43800
 72.07700;115.778;     -2.34036;3.43763
 72.57700;115.744;     -2.32799;3.43726
 73.07700;115.711;     -2.29322;3.43688
 73.57700;115.678;     -2.23718;3.43651
 74.07700;115.644;     -2.16188;3.43613
 74.57700;115.611;     -2.07027;3.43575
 75.07700;115.578;     -1.96532;3.43536
 75.57700;115.544;     -1.85027;3.43497
 76.07700;115.511;     -1.72884;3.43458
 76.57700;115.477;     -1.60502;3.43419
 77.07700;115.444;     -1.48200;3.43379
 77.57700;115.411;     -1.36268;3.43339
 78.07700;115.377;     -1.24944;3.43299
 78.57700;115.344;     -1.14471;3.43258
 79.07700;115.311;     -1.04906;3.43217
 79.57700;115.277;     -0.96352;3.43176
 80.07700;115.244;     -0.88893;3.43135
 80.57700;115.211;     -0.82481;3.43093
 81.07700;115.178;     -0.77055;3.43051
 81.57700;115.144;     -0.72548;3.43009
 82.07700;115.111;     -0.68844;3.42967
 82.57700;115.078;     -0.65916;3.42924
 83.07700;115.045;     -0.63546;3.42881
 83.57700;115.012;     -0.61729;3.42837
 84.07700;114.978;     -0.60360;3.42794
 84.57700;114.945;     -0.59307;3.42750
 85.07700;114.912;     -0.58549;3.42706
 85.57700;114.879;     -0.58004;3.42661
 86.07700;114.846;     -0.57612;3.42616
 86.57700;114.813;     -0.57326;3.42571
 87.07700;114.779;     -0.57172;3.42526
 87.57700;114.746;     -0.57072;3.42481
 88.07700;114.713;     -0.57020;3.42435
 88.57700;114.68;     -0.57028;3.42388
 89.07700;114.647;     -0.57056;3.42342
 89.57700;114.614;     -0.57079;3.42295
 90.07700;114.581;     -0.57157;3.42248
 90.57700;114.547;     -0.57223;3.42201
 91.07700;114.514;     -0.57260;3.42153
 91.57700;114.481;     -0.57320;3.42106
 92.07700;114.448;     -0.57396;3.42058
 92.57700;114.415;     -0.57460;3.42009
 93.07700;114.382;     -0.57546;3.41960
 93.57700;114.349;     -0.57578;3.41911
 94.07700;114.316;     -0.57668;3.41862
 94.57700;114.283;     -0.57720;3.41813
 95.07700;114.249;     -0.57761;3.41763
 95.57700;114.216;     -0.57854;3.41713
 96.07700;114.183;     -0.57926;3.41663
 96.57700;114.15;     -0.57990;3.41612
 97.07700;114.117;     -0.58044;3.41561
 97.57700;114.084;     -0.58096;3.41510
 98.07700;114.051;     -0.58165;3.41458
 98.57700;114.018;     -0.58243;3.41407
 99.07700;113.985;     -0.58325;3.41355
 99.57700;113.952;     -0.58404;3.41302
100.077;113.919;     -0.58494;3.41250
100.577;113.886;     -0.58534;3.41197
101.077;113.853;     -0.58625;3.41144
101.577;113.82;     -0.58692;3.41090
102.077;113.787;     -0.58805;3.41037
102.577;113.754;     -0.58894;3.40983
103.077;113.721;     -0.58986;3.40928
103.577;113.688;     -0.59091;3.40874
104.077;113.655;     -0.59189;3.40819
104.577;113.622;     -0.59277;3.40764
105.077;113.589;     -0.59409;3.40709
105.577;113.556;     -0.59511;3.40653
106.077;113.523;     -0.59603;3.40597
106.577;113.49;     -0.59743;3.40541
107.077;113.457;     -0.59884;3.40485
107.577;113.424;     -0.60009;3.40428
108.077;113.391;     -0.60172;3.40371
108.577;113.359;     -0.60285;3.40314
109.077;113.326;     -0.60445;3.40256
109.577;113.293;     -0.60587;3.40198
110.077;113.26;     -0.60756;3.40140
110.577;113.228;     -0.60934;3.40082
111.077;113.195;     -0.61153;3.40023
111.577;113.163;     -0.61297;3.39964
112.077;113.13;     -0.61520;3.39905
112.577;113.098;     -0.61724;3.39845
113.077;113.065;     -0.61916;3.39786
113.577;113.033;     -0.62145;3.39726
114.077;113.001;     -0.62377;3.39665
114.577;112.968;     -0.62633;3.39605
115.077;112.936;     -0.62873;3.39544
115.577;112.904;     -0.63144;3.39483
116.077;112.872;     -0.63382;3.39421
116.577;112.84;     -0.63655;3.39360
117.077;112.808;     -0.63933;3.39298
117.577;112.777;     -0.64252;3.39236
118.077;112.745;     -0.64549;3.39173
118.577;112.714;     -0.64869;3.39110
119.077;112.682;     -0.65195;3.39047
119.577;112.651;     -0.65524;3.38984
120.077;112.62;     -0.65829;3.38920
120.577;112.588;     -0.66183;3.38857
121.077;112.557;     -0.66537;3.38792
121.577;112.527;     -0.66882;3.38728
122.077;112.496;     -0.67269;3.38663
122.577;112.465;     -0.67607;3.38598
123.077;112.435;     -0.67962;3.38533
123.577;112.404;     -0.68309;3.38468
124.077;112.374;     -0.68619;3.38402
124.577;112.344;     -0.68928;3.38336
125.077;112.314;     -0.69208;3.38270
125.577;112.285;     -0.69470;3.38203
126.077;112.255;     -0.69694;3.38136
126.577;112.226;     -0.69856;3.38069
127.077;112.196;     -0.70005;3.38002
127.577;112.167;     -0.70063;3.37934
128.077;112.138;     -0.70056;3.37866
128.577;112.11;     -0.69966;3.37798
129.077;112.081;     -0.69785;3.37730
129.577;112.052;     -0.69485;3.37661
130.077;112.024;     -0.69072;3.37592
130.577;111.996;     -0.68506;3.37523
131.077;111.967;     -0.67785;3.37453
131.577;111.939;     -0.66893;3.37383
132.077;111.911;     -0.65761;3.37313
132.577;111.883;     -0.64393;3.37243
133.077;111.855;     -0.62805;3.37172
133.577;111.827;     -0.60877;3.37101
134.077;111.799;     -0.58672;3.37030
134.577;111.77;     -0.56104;3.36959
135.077;111.742;     -0.53197;3.36887
135.577;111.713;     -0.49890;3.36815
136.077;111.683;     -0.46135;3.36743
136.577;111.653;     -0.41919;3.36671
137.077;111.622;     -0.37200;3.36598
137.577;111.589;     -0.31971;3.36525
138.077;111.554;     -0.26179;3.36452
138.577;111.516;     -0.19886;3.36378
139.077;111.472;     -0.13202;3.36304
139.577;111.413;-6.418827e-02;3.36230